File: 220218-PanasonicBR2032-full-discharge-C50_C06.txt
time/s	mode	Capacity/mA.h	(Q-Qo)/mA.h	Ewe/V	cycle number
0.000000000000000E+000	3	0.000000000000000E+000	0.000000000000000E+000	3.36906	0.000000000000000E+000
4	3	0.000000000000000E+000	0.000000000000000E+000	3.3691	0.000000000000000E+000
8	3	0.000000000000000E+000	0.000000000000000E+000	3.3691	0.000000000000000E+000
40.0002	1	0.0316157	-0.0316157	2.62716	0.000000000000000E+000
160	1	0.158076	-0.158076	2.36488	0.000000000000000E+000
280	1	0.284536	-0.284536	2.36836	0.000000000000000E+000
400	1	0.410996	-0.410996	2.38313	0.000000000000000E+000
520	1	0.537456	-0.537456	2.39549	0.000000000000000E+000
640	1	0.663915	-0.663915	2.4053	0.000000000000000E+000
760	1	0.790374	-0.790374	2.41334	0.000000000000000E+000
880	1	0.916834	-0.916834	2.41943	0.000000000000000E+000
1000	1	1.04329	-1.04329	2.42376	0.000000000000000E+000
1120	1	1.16976	-1.16976	2.42729	0.000000000000000E+000
1240	1	1.29622	-1.29622	2.42964	0.000000000000000E+000
1360	1	1.42268	-1.42268	2.43172	0.000000000000000E+000
1480	1	1.54914	-1.54914	2.43293	0.000000000000000E+000
1600	1	1.6756	-1.6756	2.43428	0.000000000000000E+000
1720	1	1.80206	-1.80206	2.43566	0.000000000000000E+000
1840	1	1.92852	-1.92852	2.43682	0.000000000000000E+000
1960	1	2.05498	-2.05498	2.43827	0.000000000000000E+000
2080	1	2.18144	-2.18144	2.43957	0.000000000000000E+000
2200	1	2.30789	-2.30789	2.44035	0.000000000000000E+000
2320	1	2.43435	-2.43435	2.44131	0.000000000000000E+000
2440	1	2.56081	-2.56081	2.44209	0.000000000000000E+000
2560	1	2.68727	-2.68727	2.44295	0.000000000000000E+000
2680	1	2.81373	-2.81373	2.44352	0.000000000000000E+000
2800	1	2.94019	-2.94019	2.44402	0.000000000000000E+000
2920	1	3.06665	-3.06665	2.44459	0.000000000000000E+000
3040	1	3.19311	-3.19311	2.44549	0.000000000000000E+000
3160	1	3.31957	-3.31957	2.44591	0.000000000000000E+000
3280	1	3.44603	-3.44603	2.44572	0.000000000000000E+000
3400	1	3.57249	-3.57249	2.44608	0.000000000000000E+000
3520	1	3.69895	-3.69895	2.44602	0.000000000000000E+000
3640	1	3.82541	-3.82541	2.44637	0.000000000000000E+000
3760	1	3.95187	-3.95187	2.44675	0.000000000000000E+000
3880	1	4.07833	-4.07833	2.44677	0.000000000000000E+000
4000	1	4.20479	-4.20479	2.44681	0.000000000000000E+000
4120	1	4.33125	-4.33125	2.44692	0.000000000000000E+000
4240	1	4.45771	-4.45771	2.44698	0.000000000000000E+000
4360	1	4.58416	-4.58416	2.44694	0.000000000000000E+000
4480	1	4.71062	-4.71062	2.44725	0.000000000000000E+000
4600	1	4.83708	-4.83708	2.44755	0.000000000000000E+000
4720	1	4.96354	-4.96354	2.44803	0.000000000000000E+000
4840	1	5.09	-5.09	2.44812	0.000000000000000E+000
4960	1	5.21646	-5.21646	2.44847	0.000000000000000E+000
5080	1	5.34292	-5.34292	2.44877	0.000000000000000E+000
5200	1	5.46938	-5.46938	2.44877	0.000000000000000E+000
5320	1	5.59584	-5.59584	2.44916	0.000000000000000E+000
5440	1	5.7223	-5.7223	2.44929	0.000000000000000E+000
5560	1	5.84876	-5.84876	2.44946	0.000000000000000E+000
5680	1	5.97522	-5.97522	2.44986	0.000000000000000E+000
5800	1	6.10168	-6.10168	2.45034	0.000000000000000E+000
5920	1	6.22814	-6.22814	2.45089	0.000000000000000E+000
6040	1	6.3546	-6.3546	2.45063	0.000000000000000E+000
6160	1	6.48106	-6.48106	2.45107	0.000000000000000E+000
6280	1	6.60752	-6.60752	2.45187	0.000000000000000E+000
6400	1	6.73398	-6.73398	2.45206	0.000000000000000E+000
6520	1	6.86044	-6.86044	2.45238	0.000000000000000E+000
6640	1	6.9869	-6.9869	2.45263	0.000000000000000E+000
6760	1	7.11336	-7.11336	2.45231	0.000000000000000E+000
6880	1	7.23982	-7.23982	2.45231	0.000000000000000E+000
7000	1	7.36629	-7.36629	2.45221	0.000000000000000E+000
7120	1	7.49275	-7.49275	2.452	0.000000000000000E+000
7240	1	7.61921	-7.61921	2.45234	0.000000000000000E+000
7360	1	7.74567	-7.74567	2.45231	0.000000000000000E+000
7480	1	7.87213	-7.87213	2.45231	0.000000000000000E+000
7600	1	7.99859	-7.99859	2.45257	0.000000000000000E+000
7720	1	8.12505	-8.12505	2.45301	0.000000000000000E+000
7840	1	8.25151	-8.25151	2.4532	0.000000000000000E+000
7960	1	8.37797	-8.37797	2.45311	0.000000000000000E+000
8080	1	8.50443	-8.50443	2.45315	0.000000000000000E+000
8200	1	8.63089	-8.63089	2.45292	0.000000000000000E+000
8320	1	8.75735	-8.75735	2.45317	0.000000000000000E+000
8440	1	8.88382	-8.88382	2.45292	0.000000000000000E+000
8560	1	9.01028	-9.01028	2.45297	0.000000000000000E+000
8680	1	9.13674	-9.13674	2.45275	0.000000000000000E+000
8800	1	9.2632	-9.2632	2.45273	0.000000000000000E+000
8920	1	9.38966	-9.38966	2.45271	0.000000000000000E+000
9040	1	9.51612	-9.51612	2.45261	0.000000000000000E+000
9160	1	9.64258	-9.64258	2.45284	0.000000000000000E+000
9280	1	9.76904	-9.76904	2.45269	0.000000000000000E+000
9400	1	9.8955	-9.8955	2.45309	0.000000000000000E+000
9520	1	10.022	-10.022	2.45341	0.000000000000000E+000
9640	1	10.1484	-10.1484	2.45351	0.000000000000000E+000
9760	1	10.2749	-10.2749	2.45357	0.000000000000000E+000
9880	1	10.4013	-10.4013	2.45345	0.000000000000000E+000
10000	1	10.5278	-10.5278	2.45357	0.000000000000000E+000
10120	1	10.6543	-10.6543	2.45389	0.000000000000000E+000
10240	1	10.7807	-10.7807	2.45393	0.000000000000000E+000
10360	1	10.9072	-10.9072	2.45355	0.000000000000000E+000
10480	1	11.0336	-11.0336	2.45395	0.000000000000000E+000
10600	1	11.1601	-11.1601	2.45414	0.000000000000000E+000
10720	1	11.2866	-11.2866	2.4546	0.000000000000000E+000
10840	1	11.413	-11.413	2.45471	0.000000000000000E+000
10960	1	11.5395	-11.5395	2.45507	0.000000000000000E+000
11080	1	11.6659	-11.6659	2.45553	0.000000000000000E+000
11200	1	11.7924	-11.7924	2.45593	0.000000000000000E+000
11320	1	11.9189	-11.9189	2.45635	0.000000000000000E+000
11440	1	12.0453	-12.0453	2.45658	0.000000000000000E+000
11560	1	12.1718	-12.1718	2.45693	0.000000000000000E+000
11680	1	12.2983	-12.2983	2.45729	0.000000000000000E+000
11800	1	12.4247	-12.4247	2.45773	0.000000000000000E+000
11920	1	12.5512	-12.5512	2.45779	0.000000000000000E+000
12040	1	12.6776	-12.6776	2.45784	0.000000000000000E+000
12160	1	12.8041	-12.8041	2.4578	0.000000000000000E+000
12280	1	12.9306	-12.9306	2.45756	0.000000000000000E+000
12400	1	13.057	-13.057	2.45754	0.000000000000000E+000
12520	1	13.1835	-13.1835	2.4579	0.000000000000000E+000
12640	1	13.3099	-13.3099	2.45807	0.000000000000000E+000
12760	1	13.4364	-13.4364	2.45826	0.000000000000000E+000
12880	1	13.5629	-13.5629	2.45855	0.000000000000000E+000
13000	1	13.6893	-13.6893	2.45866	0.000000000000000E+000
13120	1	13.8158	-13.8158	2.45887	0.000000000000000E+000
13240	1	13.9422	-13.9422	2.45897	0.000000000000000E+000
13360	1	14.0687	-14.0687	2.45899	0.000000000000000E+000
13480	1	14.1952	-14.1952	2.45893	0.000000000000000E+000
13600	1	14.3216	-14.3216	2.45889	0.000000000000000E+000
13720	1	14.4481	-14.4481	2.45903	0.000000000000000E+000
13840	1	14.5745	-14.5745	2.4592	0.000000000000000E+000
13960	1	14.701	-14.701	2.45922	0.000000000000000E+000
14080	1	14.8275	-14.8275	2.45948	0.000000000000000E+000
14200	1	14.9539	-14.9539	2.45922	0.000000000000000E+000
14320	1	15.0804	-15.0804	2.45941	0.000000000000000E+000
14440	1	15.2068	-15.2068	2.45956	0.000000000000000E+000
14560	1	15.3333	-15.3333	2.45948	0.000000000000000E+000
14680	1	15.4598	-15.4598	2.45941	0.000000000000000E+000
14800	1	15.5862	-15.5862	2.45933	0.000000000000000E+000
14920	1	15.7127	-15.7127	2.45939	0.000000000000000E+000
15040	1	15.8391	-15.8391	2.45931	0.000000000000000E+000
15160	1	15.9656	-15.9656	2.45939	0.000000000000000E+000
15280	1	16.0921	-16.0921	2.45931	0.000000000000000E+000
15400	1	16.2185	-16.2185	2.45931	0.000000000000000E+000
15520	1	16.345	-16.345	2.4592	0.000000000000000E+000
15640	1	16.4714	-16.4714	2.45895	0.000000000000000E+000
15760	1	16.5979	-16.5979	2.45912	0.000000000000000E+000
15880	1	16.7244	-16.7244	2.45943	0.000000000000000E+000
16000	1	16.8508	-16.8508	2.45922	0.000000000000000E+000
16120	1	16.9773	-16.9773	2.45906	0.000000000000000E+000
16240	1	17.1037	-17.1037	2.45929	0.000000000000000E+000
16360	1	17.2302	-17.2302	2.45885	0.000000000000000E+000
16480	1	17.3567	-17.3567	2.45885	0.000000000000000E+000
16600	1	17.4831	-17.4831	2.45884	0.000000000000000E+000
16720	1	17.6096	-17.6096	2.45887	0.000000000000000E+000
16840	1	17.736	-17.736	2.45901	0.000000000000000E+000
16960	1	17.8625	-17.8625	2.45899	0.000000000000000E+000
17080	1	17.989	-17.989	2.45906	0.000000000000000E+000
17200	1	18.1154	-18.1154	2.45893	0.000000000000000E+000
17320	1	18.2419	-18.2419	2.45899	0.000000000000000E+000
17440	1	18.3683	-18.3683	2.45901	0.000000000000000E+000
17560	1	18.4948	-18.4948	2.45885	0.000000000000000E+000
17680	1	18.6213	-18.6213	2.45868	0.000000000000000E+000
17800	1	18.7477	-18.7477	2.45887	0.000000000000000E+000
17920	1	18.8742	-18.8742	2.45893	0.000000000000000E+000
18040	1	19.0006	-19.0006	2.45905	0.000000000000000E+000
18160	1	19.1271	-19.1271	2.45885	0.000000000000000E+000
18280	1	19.2536	-19.2536	2.45905	0.000000000000000E+000
18400	1	19.38	-19.38	2.45906	0.000000000000000E+000
18520	1	19.5065	-19.5065	2.45899	0.000000000000000E+000
18640	1	19.6329	-19.6329	2.45882	0.000000000000000E+000
18760	1	19.7594	-19.7594	2.45885	0.000000000000000E+000
18880	1	19.8859	-19.8859	2.45882	0.000000000000000E+000
19000	1	20.0123	-20.0123	2.45878	0.000000000000000E+000
19120	1	20.1388	-20.1388	2.45885	0.000000000000000E+000
19240	1	20.2652	-20.2652	2.45872	0.000000000000000E+000
19360	1	20.3917	-20.3917	2.45906	0.000000000000000E+000
19480	1	20.5182	-20.5182	2.45885	0.000000000000000E+000
19600	1	20.6446	-20.6446	2.45891	0.000000000000000E+000
19720	1	20.7711	-20.7711	2.45895	0.000000000000000E+000
19840	1	20.8975	-20.8975	2.45887	0.000000000000000E+000
19960	1	21.024	-21.024	2.45878	0.000000000000000E+000
20080	1	21.1505	-21.1505	2.45903	0.000000000000000E+000
20200	1	21.2769	-21.2769	2.45905	0.000000000000000E+000
20320	1	21.4034	-21.4034	2.45899	0.000000000000000E+000
20440	1	21.5298	-21.5298	2.45895	0.000000000000000E+000
20560	1	21.6563	-21.6563	2.45887	0.000000000000000E+000
20680	1	21.7828	-21.7828	2.45895	0.000000000000000E+000
20800	1	21.9092	-21.9092	2.45876	0.000000000000000E+000
20920	1	22.0357	-22.0357	2.45889	0.000000000000000E+000
21040	1	22.1621	-22.1621	2.45901	0.000000000000000E+000
21160	1	22.2886	-22.2886	2.45897	0.000000000000000E+000
21280	1	22.4151	-22.4151	2.45901	0.000000000000000E+000
21400	1	22.5415	-22.5415	2.4588	0.000000000000000E+000
21520	1	22.668	-22.668	2.45874	0.000000000000000E+000
21640	1	22.7944	-22.7944	2.45857	0.000000000000000E+000
21760	1	22.9209	-22.9209	2.45842	0.000000000000000E+000
21880	1	23.0474	-23.0474	2.45857	0.000000000000000E+000
22000	1	23.1738	-23.1738	2.45838	0.000000000000000E+000
22120	1	23.3003	-23.3003	2.45836	0.000000000000000E+000
22240	1	23.4267	-23.4267	2.45845	0.000000000000000E+000
22360	1	23.5532	-23.5532	2.45853	0.000000000000000E+000
22480	1	23.6797	-23.6797	2.4584	0.000000000000000E+000
22600	1	23.8061	-23.8061	2.45838	0.000000000000000E+000
22720	1	23.9326	-23.9326	2.45847	0.000000000000000E+000
22840	1	24.059	-24.059	2.45845	0.000000000000000E+000
22960	1	24.1855	-24.1855	2.45847	0.000000000000000E+000
23080	1	24.312	-24.312	2.45838	0.000000000000000E+000
23200	1	24.4384	-24.4384	2.45847	0.000000000000000E+000
23320	1	24.5649	-24.5649	2.45838	0.000000000000000E+000
23440	1	24.6913	-24.6913	2.4584	0.000000000000000E+000
23560	1	24.8178	-24.8178	2.45828	0.000000000000000E+000
23680	1	24.9443	-24.9443	2.45817	0.000000000000000E+000
23800	1	25.0707	-25.0707	2.45828	0.000000000000000E+000
23920	1	25.1972	-25.1972	2.4584	0.000000000000000E+000
24040	1	25.3236	-25.3236	2.4584	0.000000000000000E+000
24160	1	25.4501	-25.4501	2.45826	0.000000000000000E+000
24280	1	25.5766	-25.5766	2.45805	0.000000000000000E+000
24400	1	25.703	-25.703	2.45794	0.000000000000000E+000
24520	1	25.8295	-25.8295	2.4579	0.000000000000000E+000
24640	1	25.9559	-25.9559	2.45803	0.000000000000000E+000
24760	1	26.0824	-26.0824	2.45779	0.000000000000000E+000
24880	1	26.2089	-26.2089	2.4578	0.000000000000000E+000
25000	1	26.3353	-26.3353	2.45782	0.000000000000000E+000
25120	1	26.4618	-26.4618	2.45763	0.000000000000000E+000
25240	1	26.5882	-26.5882	2.45775	0.000000000000000E+000
25360	1	26.7147	-26.7147	2.45767	0.000000000000000E+000
25480	1	26.8412	-26.8412	2.4578	0.000000000000000E+000
25600	1	26.9676	-26.9676	2.45767	0.000000000000000E+000
25720	1	27.0941	-27.0941	2.45733	0.000000000000000E+000
25840	1	27.2205	-27.2205	2.45742	0.000000000000000E+000
25960	1	27.347	-27.347	2.45775	0.000000000000000E+000
26080	1	27.4735	-27.4735	2.45758	0.000000000000000E+000
26200	1	27.5999	-27.5999	2.45748	0.000000000000000E+000
26320	1	27.7264	-27.7264	2.4574	0.000000000000000E+000
26440	1	27.8529	-27.8529	2.45744	0.000000000000000E+000
26560	1	27.9793	-27.9793	2.45708	0.000000000000000E+000
26680	1	28.1058	-28.1058	2.45725	0.000000000000000E+000
26800	1	28.2322	-28.2322	2.45723	0.000000000000000E+000
26920	1	28.3587	-28.3587	2.45714	0.000000000000000E+000
27040	1	28.4852	-28.4852	2.45714	0.000000000000000E+000
27160	1	28.6116	-28.6116	2.45677	0.000000000000000E+000
27280	1	28.7381	-28.7381	2.45675	0.000000000000000E+000
27400	1	28.8645	-28.8645	2.4566	0.000000000000000E+000
27520	1	28.991	-28.991	2.45674	0.000000000000000E+000
27640	1	29.1175	-29.1175	2.45632	0.000000000000000E+000
27760	1	29.2439	-29.2439	2.45668	0.000000000000000E+000
27880	1	29.3704	-29.3704	2.45656	0.000000000000000E+000
28000	1	29.4968	-29.4968	2.4566	0.000000000000000E+000
28120	1	29.6233	-29.6233	2.45654	0.000000000000000E+000
28240	1	29.7498	-29.7498	2.45626	0.000000000000000E+000
28360	1	29.8762	-29.8762	2.45611	0.000000000000000E+000
28480	1	30.0027	-30.0027	2.45622	0.000000000000000E+000
28600	1	30.1291	-30.1291	2.45595	0.000000000000000E+000
28720	1	30.2556	-30.2556	2.45622	0.000000000000000E+000
28840	1	30.3821	-30.3821	2.45572	0.000000000000000E+000
28960	1	30.5085	-30.5085	2.45548	0.000000000000000E+000
29080	1	30.635	-30.635	2.45553	0.000000000000000E+000
29200	1	30.7614	-30.7614	2.45553	0.000000000000000E+000
29320	1	30.8879	-30.8879	2.45532	0.000000000000000E+000
29440	1	31.0144	-31.0144	2.45527	0.000000000000000E+000
29560	1	31.1408	-31.1408	2.4554	0.000000000000000E+000
29680	1	31.2673	-31.2673	2.45509	0.000000000000000E+000
29800	1	31.3937	-31.3937	2.45498	0.000000000000000E+000
29920	1	31.5202	-31.5202	2.45494	0.000000000000000E+000
30040	1	31.6467	-31.6467	2.45483	0.000000000000000E+000
30160	1	31.7731	-31.7731	2.45477	0.000000000000000E+000
30280	1	31.8996	-31.8996	2.45444	0.000000000000000E+000
30400	1	32.026	-32.026	2.45393	0.000000000000000E+000
30520	1	32.1525	-32.1525	2.45423	0.000000000000000E+000
30640	1	32.279	-32.279	2.45404	0.000000000000000E+000
30760	1	32.4054	-32.4054	2.45383	0.000000000000000E+000
30880	1	32.5319	-32.5319	2.45395	0.000000000000000E+000
31000	1	32.6584	-32.6583	2.45389	0.000000000000000E+000
31120	1	32.7848	-32.7848	2.45372	0.000000000000000E+000
31240	1	32.9113	-32.9113	2.45349	0.000000000000000E+000
31360	1	33.0377	-33.0377	2.45347	0.000000000000000E+000
31480	1	33.1642	-33.1642	2.45351	0.000000000000000E+000
31600	1	33.2907	-33.2907	2.45347	0.000000000000000E+000
31720	1	33.4171	-33.4171	2.45353	0.000000000000000E+000
31840	1	33.5436	-33.5436	2.45349	0.000000000000000E+000
31960	1	33.67	-33.67	2.45309	0.000000000000000E+000
32080	1	33.7965	-33.7965	2.45311	0.000000000000000E+000
32200	1	33.923	-33.923	2.45296	0.000000000000000E+000
32320	1	34.0494	-34.0494	2.45311	0.000000000000000E+000
32440	1	34.1759	-34.1759	2.45311	0.000000000000000E+000
32560	1	34.3023	-34.3023	2.45273	0.000000000000000E+000
32680	1	34.4288	-34.4288	2.45252	0.000000000000000E+000
32800	1	34.5553	-34.5553	2.45246	0.000000000000000E+000
32920	1	34.6817	-34.6817	2.45242	0.000000000000000E+000
33040	1	34.8082	-34.8082	2.45233	0.000000000000000E+000
33160	1	34.9346	-34.9346	2.45227	0.000000000000000E+000
33280	1	35.0611	-35.0611	2.45204	0.000000000000000E+000
33400	1	35.1876	-35.1876	2.45185	0.000000000000000E+000
33520	1	35.314	-35.314	2.45185	0.000000000000000E+000
33640	1	35.4405	-35.4405	2.45164	0.000000000000000E+000
33760	1	35.5669	-35.5669	2.45145	0.000000000000000E+000
33880	1	35.6934	-35.6934	2.45126	0.000000000000000E+000
34000	1	35.8199	-35.8199	2.45091	0.000000000000000E+000
34120	1	35.9463	-35.9463	2.45074	0.000000000000000E+000
34240	1	36.0728	-36.0728	2.45068	0.000000000000000E+000
34360	1	36.1992	-36.1992	2.45055	0.000000000000000E+000
34480	1	36.3257	-36.3257	2.45019	0.000000000000000E+000
34600	1	36.4522	-36.4522	2.44981	0.000000000000000E+000
34720	1	36.5786	-36.5786	2.44986	0.000000000000000E+000
34840	1	36.7051	-36.7051	2.44982	0.000000000000000E+000
34960	1	36.8315	-36.8315	2.44967	0.000000000000000E+000
35080	1	36.958	-36.958	2.44959	0.000000000000000E+000
35200	1	37.0845	-37.0845	2.44935	0.000000000000000E+000
35320	1	37.2109	-37.2109	2.44931	0.000000000000000E+000
35440	1	37.3374	-37.3374	2.44879	0.000000000000000E+000
35560	1	37.4638	-37.4638	2.4483	0.000000000000000E+000
35680	1	37.5903	-37.5903	2.44784	0.000000000000000E+000
35800	1	37.7167	-37.7167	2.44769	0.000000000000000E+000
35920	1	37.8432	-37.8432	2.44795	0.000000000000000E+000
36040	1	37.9697	-37.9697	2.44763	0.000000000000000E+000
36160	1	38.0961	-38.0961	2.44765	0.000000000000000E+000
36280	1	38.2226	-38.2226	2.44709	0.000000000000000E+000
36400	1	38.349	-38.349	2.44702	0.000000000000000E+000
36520	1	38.4755	-38.4755	2.44671	0.000000000000000E+000
36640	1	38.602	-38.602	2.44641	0.000000000000000E+000
36760	1	38.7284	-38.7284	2.44602	0.000000000000000E+000
36880	1	38.8549	-38.8549	2.44599	0.000000000000000E+000
37000	1	38.9813	-38.9813	2.44572	0.000000000000000E+000
37120	1	39.1078	-39.1078	2.44528	0.000000000000000E+000
37240	1	39.2343	-39.2343	2.44467	0.000000000000000E+000
37360	1	39.3607	-39.3607	2.44463	0.000000000000000E+000
37480	1	39.4872	-39.4872	2.44429	0.000000000000000E+000
37600	1	39.6136	-39.6136	2.44375	0.000000000000000E+000
37720	1	39.7401	-39.7401	2.44356	0.000000000000000E+000
37840	1	39.8666	-39.8666	2.44337	0.000000000000000E+000
37960	1	39.993	-39.993	2.44299	0.000000000000000E+000
38080	1	40.1195	-40.1195	2.44282	0.000000000000000E+000
38200	1	40.246	-40.2459	2.44284	0.000000000000000E+000
38320	1	40.3724	-40.3724	2.44284	0.000000000000000E+000
38440	1	40.4989	-40.4989	2.44255	0.000000000000000E+000
38560	1	40.6253	-40.6253	2.44228	0.000000000000000E+000
38680	1	40.7518	-40.7518	2.44217	0.000000000000000E+000
38800	1	40.8783	-40.8782	2.44184	0.000000000000000E+000
38920	1	41.0047	-41.0047	2.44163	0.000000000000000E+000
39040	1	41.1312	-41.1312	2.44148	0.000000000000000E+000
39160	1	41.2576	-41.2576	2.44114	0.000000000000000E+000
39280	1	41.3841	-41.3841	2.44056	0.000000000000000E+000
39400	1	41.5106	-41.5105	2.44028	0.000000000000000E+000
39520	1	41.637	-41.637	2.4398	0.000000000000000E+000
39640	1	41.7635	-41.7635	2.43967	0.000000000000000E+000
39760	1	41.8899	-41.8899	2.43934	0.000000000000000E+000
39880	1	42.0164	-42.0164	2.43909	0.000000000000000E+000
40000	1	42.1429	-42.1428	2.43885	0.000000000000000E+000
40120	1	42.2693	-42.2693	2.43886	0.000000000000000E+000
40240	1	42.3958	-42.3958	2.43841	0.000000000000000E+000
40360	1	42.5222	-42.5222	2.43802	0.000000000000000E+000
40480	1	42.6487	-42.6487	2.43757	0.000000000000000E+000
40600	1	42.7751	-42.7751	2.43759	0.000000000000000E+000
40720	1	42.9016	-42.9016	2.43762	0.000000000000000E+000
40840	1	43.0281	-43.0281	2.43718	0.000000000000000E+000
40960	1	43.1545	-43.1545	2.43665	0.000000000000000E+000
41080	1	43.281	-43.281	2.43642	0.000000000000000E+000
41200	1	43.4074	-43.4074	2.43612	0.000000000000000E+000
41320	1	43.5339	-43.5339	2.43568	0.000000000000000E+000
41440	1	43.6604	-43.6604	2.43518	0.000000000000000E+000
41560	1	43.7868	-43.7868	2.43499	0.000000000000000E+000
41680	1	43.9133	-43.9133	2.43468	0.000000000000000E+000
41800	1	44.0397	-44.0397	2.434	0.000000000000000E+000
41920	1	44.1662	-44.1662	2.43377	0.000000000000000E+000
42040	1	44.2927	-44.2927	2.43327	0.000000000000000E+000
42160	1	44.4191	-44.4191	2.43258	0.000000000000000E+000
42280	1	44.5456	-44.5456	2.4322	0.000000000000000E+000
42400	1	44.672	-44.672	2.43214	0.000000000000000E+000
42520	1	44.7985	-44.7985	2.43148	0.000000000000000E+000
42640	1	44.925	-44.925	2.4309	0.000000000000000E+000
42760	1	45.0514	-45.0514	2.43083	0.000000000000000E+000
42880	1	45.1779	-45.1779	2.43023	0.000000000000000E+000
43000	1	45.3043	-45.3043	2.42959	0.000000000000000E+000
43120	1	45.4308	-45.4308	2.4292	0.000000000000000E+000
43240	1	45.5573	-45.5573	2.42913	0.000000000000000E+000
43360	1	45.6837	-45.6837	2.42876	0.000000000000000E+000
43480	1	45.8102	-45.8102	2.42836	0.000000000000000E+000
43600	1	45.9366	-45.9366	2.428	0.000000000000000E+000
43720	1	46.0631	-46.0631	2.42756	0.000000000000000E+000
43840	1	46.1896	-46.1896	2.42708	0.000000000000000E+000
43960	1	46.316	-46.316	2.42653	0.000000000000000E+000
44080	1	46.4425	-46.4425	2.42598	0.000000000000000E+000
44200	1	46.5689	-46.5689	2.42582	0.000000000000000E+000
44320	1	46.6954	-46.6954	2.42539	0.000000000000000E+000
44440	1	46.8219	-46.8219	2.425	0.000000000000000E+000
44560	1	46.9483	-46.9483	2.42458	0.000000000000000E+000
44680	1	47.0748	-47.0748	2.42399	0.000000000000000E+000
44800	1	47.2012	-47.2012	2.42346	0.000000000000000E+000
44920	1	47.3277	-47.3277	2.42308	0.000000000000000E+000
45040	1	47.4542	-47.4542	2.42287	0.000000000000000E+000
45160	1	47.5806	-47.5806	2.4225	0.000000000000000E+000
45280	1	47.7071	-47.7071	2.42185	0.000000000000000E+000
45400	1	47.8335	-47.8335	2.42157	0.000000000000000E+000
45520	1	47.96	-47.96	2.42122	0.000000000000000E+000
45640	1	48.0865	-48.0865	2.4208	0.000000000000000E+000
45760	1	48.2129	-48.2129	2.42017	0.000000000000000E+000
45880	1	48.3394	-48.3394	2.41973	0.000000000000000E+000
46000	1	48.4658	-48.4658	2.41926	0.000000000000000E+000
46120	1	48.5923	-48.5923	2.41853	0.000000000000000E+000
46240	1	48.7188	-48.7188	2.41815	0.000000000000000E+000
46360	1	48.8452	-48.8452	2.41813	0.000000000000000E+000
46480	1	48.9717	-48.9717	2.4176	0.000000000000000E+000
46600	1	49.0981	-49.0981	2.41721	0.000000000000000E+000
46720	1	49.2246	-49.2246	2.41666	0.000000000000000E+000
46840	1	49.3511	-49.3511	2.41624	0.000000000000000E+000
46960	1	49.4775	-49.4775	2.41607	0.000000000000000E+000
47080	1	49.604	-49.604	2.41561	0.000000000000000E+000
47200	1	49.7304	-49.7304	2.415	0.000000000000000E+000
47320	1	49.8569	-49.8569	2.41435	0.000000000000000E+000
47440	1	49.9834	-49.9834	2.41383	0.000000000000000E+000
47560	1	50.1098	-50.1098	2.41351	0.000000000000000E+000
47680	1	50.2363	-50.2363	2.41319	0.000000000000000E+000
47800	1	50.3627	-50.3627	2.41273	0.000000000000000E+000
47920	1	50.4892	-50.4892	2.41231	0.000000000000000E+000
48040	1	50.6157	-50.6157	2.41208	0.000000000000000E+000
48160	1	50.7421	-50.7421	2.4116	0.000000000000000E+000
48280	1	50.8686	-50.8686	2.41095	0.000000000000000E+000
48400	1	50.995	-50.995	2.4104	0.000000000000000E+000
48520	1	51.1215	-51.1215	2.4099	0.000000000000000E+000
48640	1	51.248	-51.248	2.4095	0.000000000000000E+000
48760	1	51.3744	-51.3744	2.40885	0.000000000000000E+000
48880	1	51.5009	-51.5009	2.40872	0.000000000000000E+000
49000	1	51.6273	-51.6273	2.40828	0.000000000000000E+000
49120	1	51.7538	-51.7538	2.40814	0.000000000000000E+000
49240	1	51.8803	-51.8803	2.40772	0.000000000000000E+000
49360	1	52.0067	-52.0067	2.40727	0.000000000000000E+000
49480	1	52.1332	-52.1332	2.40648	0.000000000000000E+000
49600	1	52.2596	-52.2596	2.40616	0.000000000000000E+000
49720	1	52.3861	-52.3861	2.40549	0.000000000000000E+000
49840	1	52.5126	-52.5126	2.40488	0.000000000000000E+000
49960	1	52.639	-52.639	2.40475	0.000000000000000E+000
50080	1	52.7655	-52.7655	2.40417	0.000000000000000E+000
50200	1	52.8919	-52.8919	2.40375	0.000000000000000E+000
50320	1	53.0184	-53.0184	2.40316	0.000000000000000E+000
50440	1	53.1449	-53.1449	2.40297	0.000000000000000E+000
50560	1	53.2713	-53.2713	2.40246	0.000000000000000E+000
50680	1	53.3978	-53.3978	2.40204	0.000000000000000E+000
50800	1	53.5242	-53.5242	2.40188	0.000000000000000E+000
50920	1	53.6507	-53.6507	2.40114	0.000000000000000E+000
51040	1	53.7772	-53.7772	2.40058	0.000000000000000E+000
51160	1	53.9036	-53.9036	2.40016	0.000000000000000E+000
51280	1	54.0301	-54.0301	2.39965	0.000000000000000E+000
51400	1	54.1565	-54.1565	2.39934	0.000000000000000E+000
51520	1	54.283	-54.283	2.39896	0.000000000000000E+000
51640	1	54.4095	-54.4095	2.39845	0.000000000000000E+000
51760	1	54.5359	-54.5359	2.3978	0.000000000000000E+000
51880	1	54.6624	-54.6624	2.39745	0.000000000000000E+000
52000	1	54.7888	-54.7888	2.39688	0.000000000000000E+000
52120	1	54.9153	-54.9153	2.39657	0.000000000000000E+000
52240	1	55.0418	-55.0418	2.39604	0.000000000000000E+000
52360	1	55.1682	-55.1682	2.3956	0.000000000000000E+000
52480	1	55.2947	-55.2947	2.39514	0.000000000000000E+000
52600	1	55.4211	-55.4211	2.39465	0.000000000000000E+000
52720	1	55.5476	-55.5476	2.39423	0.000000000000000E+000
52840	1	55.6741	-55.6741	2.3935	0.000000000000000E+000
52960	1	55.8005	-55.8005	2.39297	0.000000000000000E+000
53080	1	55.927	-55.927	2.39209	0.000000000000000E+000
53200	1	56.0534	-56.0534	2.39186	0.000000000000000E+000
53320	1	56.1799	-56.1799	2.39148	0.000000000000000E+000
53440	1	56.3064	-56.3064	2.39096	0.000000000000000E+000
53560	1	56.4328	-56.4328	2.39083	0.000000000000000E+000
53680	1	56.5593	-56.5593	2.39031	0.000000000000000E+000
53800	1	56.6857	-56.6857	2.38989	0.000000000000000E+000
53920	1	56.8122	-56.8122	2.38926	0.000000000000000E+000
54040	1	56.9387	-56.9387	2.38859	0.000000000000000E+000
54160	1	57.0651	-57.0651	2.38821	0.000000000000000E+000
54280	1	57.1916	-57.1916	2.38779	0.000000000000000E+000
54400	1	57.318	-57.318	2.38716	0.000000000000000E+000
54520	1	57.4445	-57.4445	2.38695	0.000000000000000E+000
54640	1	57.571	-57.571	2.38668	0.000000000000000E+000
54760	1	57.6974	-57.6974	2.38579	0.000000000000000E+000
54880	1	57.8239	-57.8239	2.3855	0.000000000000000E+000
55000	1	57.9503	-57.9503	2.38479	0.000000000000000E+000
55120	1	58.0768	-58.0768	2.38416	0.000000000000000E+000
55240	1	58.2033	-58.2033	2.38394	0.000000000000000E+000
55360	1	58.3297	-58.3297	2.38325	0.000000000000000E+000
55480	1	58.4562	-58.4562	2.3829	0.000000000000000E+000
55600	1	58.5826	-58.5826	2.38247	0.000000000000000E+000
55720	1	58.7091	-58.7091	2.38191	0.000000000000000E+000
55840	1	58.8356	-58.8356	2.38145	0.000000000000000E+000
55960	1	58.962	-58.962	2.38101	0.000000000000000E+000
56080	1	59.0885	-59.0885	2.3804	0.000000000000000E+000
56200	1	59.2149	-59.2149	2.37991	0.000000000000000E+000
56320	1	59.3414	-59.3414	2.37972	0.000000000000000E+000
56440	1	59.4678	-59.4678	2.37895	0.000000000000000E+000
56560	1	59.5943	-59.5943	2.37849	0.000000000000000E+000
56680	1	59.7208	-59.7208	2.37823	0.000000000000000E+000
56800	1	59.8472	-59.8472	2.37771	0.000000000000000E+000
56920	1	59.9737	-59.9737	2.37721	0.000000000000000E+000
57040	1	60.1001	-60.1001	2.37676	0.000000000000000E+000
57160	1	60.2266	-60.2266	2.37634	0.000000000000000E+000
57280	1	60.3531	-60.3531	2.37603	0.000000000000000E+000
57400	1	60.4795	-60.4795	2.37567	0.000000000000000E+000
57520	1	60.606	-60.606	2.37506	0.000000000000000E+000
57640	1	60.7324	-60.7324	2.37431	0.000000000000000E+000
57760	1	60.8589	-60.8589	2.37389	0.000000000000000E+000
57880	1	60.9854	-60.9854	2.37338	0.000000000000000E+000
58000	1	61.1118	-61.1118	2.37282	0.000000000000000E+000
58120	1	61.2383	-61.2383	2.37236	0.000000000000000E+000
58240	1	61.3647	-61.3647	2.372	0.000000000000000E+000
58360	1	61.4912	-61.4912	2.37133	0.000000000000000E+000
58480	1	61.6177	-61.6177	2.37078	0.000000000000000E+000
58600	1	61.7441	-61.7441	2.37011	0.000000000000000E+000
58720	1	61.8706	-61.8706	2.36952	0.000000000000000E+000
58840	1	61.997	-61.997	2.36914	0.000000000000000E+000
58960	1	62.1235	-62.1235	2.36881	0.000000000000000E+000
59080	1	62.25	-62.25	2.36847	0.000000000000000E+000
59200	1	62.3764	-62.3764	2.36839	0.000000000000000E+000
59320	1	62.5029	-62.5029	2.36753	0.000000000000000E+000
59440	1	62.6293	-62.6293	2.36736	0.000000000000000E+000
59560	1	62.7558	-62.7558	2.36669	0.000000000000000E+000
59680	1	62.8823	-62.8823	2.3666	0.000000000000000E+000
59800	1	63.0087	-63.0087	2.36603	0.000000000000000E+000
59920	1	63.1352	-63.1352	2.36561	0.000000000000000E+000
60040	1	63.2616	-63.2616	2.36526	0.000000000000000E+000
60160	1	63.3881	-63.3881	2.36503	0.000000000000000E+000
60280	1	63.5146	-63.5146	2.36479	0.000000000000000E+000
60400	1	63.641	-63.641	2.36435	0.000000000000000E+000
60520	1	63.7675	-63.7675	2.36389	0.000000000000000E+000
60640	1	63.8939	-63.8939	2.36316	0.000000000000000E+000
60760	1	64.0204	-64.0204	2.36267	0.000000000000000E+000
60880	1	64.1469	-64.1469	2.36238	0.000000000000000E+000
61000	1	64.2733	-64.2733	2.36198	0.000000000000000E+000
61120	1	64.3998	-64.3998	2.36165	0.000000000000000E+000
61240	1	64.5262	-64.5262	2.36121	0.000000000000000E+000
61360	1	64.6527	-64.6527	2.36099	0.000000000000000E+000
61480	1	64.7792	-64.7792	2.36057	0.000000000000000E+000
61600	1	64.9056	-64.9056	2.36034	0.000000000000000E+000
61720	1	65.0321	-65.0321	2.35978	0.000000000000000E+000
61840	1	65.1585	-65.1585	2.35953	0.000000000000000E+000
61960	1	65.285	-65.285	2.35902	0.000000000000000E+000
62080	1	65.4115	-65.4115	2.35868	0.000000000000000E+000
62200	1	65.5379	-65.5379	2.35858	0.000000000000000E+000
62320	1	65.6644	-65.6644	2.35793	0.000000000000000E+000
62440	1	65.7908	-65.7908	2.35755	0.000000000000000E+000
62560	1	65.9173	-65.9173	2.35719	0.000000000000000E+000
62680	1	66.0438	-66.0438	2.35661	0.000000000000000E+000
62800	1	66.1702	-66.1702	2.3565	0.000000000000000E+000
62920	1	66.2967	-66.2967	2.35614	0.000000000000000E+000
63040	1	66.4231	-66.4231	2.35585	0.000000000000000E+000
63160	1	66.5496	-66.5496	2.35562	0.000000000000000E+000
63280	1	66.6761	-66.6761	2.35524	0.000000000000000E+000
63400	1	66.8025	-66.8025	2.3549	0.000000000000000E+000
63520	1	66.929	-66.929	2.35472	0.000000000000000E+000
63640	1	67.0554	-67.0554	2.3544	0.000000000000000E+000
63760	1	67.1819	-67.1819	2.35432	0.000000000000000E+000
63880	1	67.3084	-67.3084	2.3539	0.000000000000000E+000
64000	1	67.4348	-67.4348	2.35333	0.000000000000000E+000
64120	1	67.5613	-67.5613	2.35293	0.000000000000000E+000
64240	1	67.6878	-67.6878	2.35266	0.000000000000000E+000
64360	1	67.8142	-67.8142	2.35237	0.000000000000000E+000
64480	1	67.9407	-67.9407	2.35211	0.000000000000000E+000
64600	1	68.0671	-68.0671	2.3519	0.000000000000000E+000
64720	1	68.1936	-68.1936	2.35169	0.000000000000000E+000
64840	1	68.3201	-68.3201	2.35136	0.000000000000000E+000
64960	1	68.4465	-68.4465	2.35125	0.000000000000000E+000
65080	1	68.573	-68.573	2.35119	0.000000000000000E+000
65200	1	68.6994	-68.6994	2.35104	0.000000000000000E+000
65320	1	68.8259	-68.8259	2.35089	0.000000000000000E+000
65440	1	68.9524	-68.9524	2.35048	0.000000000000000E+000
65560	1	69.0788	-69.0788	2.35022	0.000000000000000E+000
65680	1	69.2053	-69.2053	2.34999	0.000000000000000E+000
65800	1	69.3318	-69.3317	2.34955	0.000000000000000E+000
65920	1	69.4582	-69.4582	2.34936	0.000000000000000E+000
66040	1	69.5847	-69.5847	2.34936	0.000000000000000E+000
66160	1	69.7111	-69.7111	2.34886	0.000000000000000E+000
66280	1	69.8376	-69.8376	2.34865	0.000000000000000E+000
66400	1	69.9641	-69.9641	2.34821	0.000000000000000E+000
66520	1	70.0905	-70.0905	2.348	0.000000000000000E+000
66640	1	70.217	-70.217	2.34783	0.000000000000000E+000
66760	1	70.3434	-70.3434	2.34753	0.000000000000000E+000
66880	1	70.4699	-70.4699	2.34743	0.000000000000000E+000
67000	1	70.5964	-70.5964	2.34735	0.000000000000000E+000
67120	1	70.7228	-70.7228	2.34697	0.000000000000000E+000
67240	1	70.8493	-70.8493	2.34709	0.000000000000000E+000
67360	1	70.9757	-70.9757	2.34674	0.000000000000000E+000
67480	1	71.1022	-71.1022	2.34669	0.000000000000000E+000
67600	1	71.2287	-71.2287	2.3463	0.000000000000000E+000
67720	1	71.3551	-71.3551	2.34621	0.000000000000000E+000
67840	1	71.4816	-71.4816	2.34571	0.000000000000000E+000
67960	1	71.6081	-71.6081	2.34588	0.000000000000000E+000
68080	1	71.7345	-71.7345	2.34562	0.000000000000000E+000
68200	1	71.861	-71.861	2.34518	0.000000000000000E+000
68320	1	71.9874	-71.9874	2.34502	0.000000000000000E+000
68440	1	72.1139	-72.1139	2.34459	0.000000000000000E+000
68560	1	72.2404	-72.2404	2.34464	0.000000000000000E+000
68680	1	72.3668	-72.3668	2.34441	0.000000000000000E+000
68800	1	72.4933	-72.4933	2.34413	0.000000000000000E+000
68920	1	72.6197	-72.6197	2.34386	0.000000000000000E+000
69040	1	72.7462	-72.7462	2.3435	0.000000000000000E+000
69160	1	72.8727	-72.8727	2.34344	0.000000000000000E+000
69280	1	72.9991	-72.9991	2.34344	0.000000000000000E+000
69400	1	73.1256	-73.1256	2.34312	0.000000000000000E+000
69520	1	73.2521	-73.252	2.34302	0.000000000000000E+000
69640	1	73.3785	-73.3785	2.34275	0.000000000000000E+000
69760	1	73.505	-73.505	2.3421	0.000000000000000E+000
69880	1	73.6314	-73.6314	2.34142	0.000000000000000E+000
70000	1	73.7579	-73.7579	2.3413	0.000000000000000E+000
70120	1	73.8844	-73.8844	2.34103	0.000000000000000E+000
70240	1	74.0108	-74.0108	2.34073	0.000000000000000E+000
70360	1	74.1373	-74.1373	2.34073	0.000000000000000E+000
70480	1	74.2637	-74.2637	2.34056	0.000000000000000E+000
70600	1	74.3902	-74.3902	2.34054	0.000000000000000E+000
70720	1	74.5167	-74.5167	2.34025	0.000000000000000E+000
70840	1	74.6431	-74.6431	2.34	0.000000000000000E+000
70960	1	74.7696	-74.7696	2.33974	0.000000000000000E+000
71080	1	74.896	-74.896	2.33985	0.000000000000000E+000
71200	1	75.0225	-75.0225	2.33958	0.000000000000000E+000
71320	1	75.149	-75.149	2.33945	0.000000000000000E+000
71440	1	75.2754	-75.2754	2.33911	0.000000000000000E+000
71560	1	75.4019	-75.4019	2.33851	0.000000000000000E+000
71680	1	75.5283	-75.5283	2.33827	0.000000000000000E+000
71800	1	75.6548	-75.6548	2.3379	0.000000000000000E+000
71920	1	75.7813	-75.7813	2.33775	0.000000000000000E+000
72040	1	75.9077	-75.9077	2.33809	0.000000000000000E+000
72160	1	76.0342	-76.0342	2.33786	0.000000000000000E+000
72280	1	76.1607	-76.1607	2.33767	0.000000000000000E+000
72400	1	76.2871	-76.2871	2.33754	0.000000000000000E+000
72520	1	76.4136	-76.4136	2.33739	0.000000000000000E+000
72640	1	76.54	-76.54	2.33725	0.000000000000000E+000
72760	1	76.6665	-76.6665	2.33723	0.000000000000000E+000
72880	1	76.793	-76.793	2.33704	0.000000000000000E+000
73000	1	76.9194	-76.9194	2.33678	0.000000000000000E+000
73120	1	77.0459	-77.0459	2.33647	0.000000000000000E+000
73240	1	77.1723	-77.1723	2.33611	0.000000000000000E+000
73360.1	1	77.2988	-77.2988	2.33586	0.000000000000000E+000
73480.1	1	77.4253	-77.4253	2.33565	0.000000000000000E+000
73600.1	1	77.5517	-77.5517	2.33529	0.000000000000000E+000
73720.1	1	77.6782	-77.6782	2.33519	0.000000000000000E+000
73840.1	1	77.8046	-77.8046	2.33517	0.000000000000000E+000
73960.1	1	77.9311	-77.9311	2.33534	0.000000000000000E+000
74080.1	1	78.0576	-78.0576	2.33527	0.000000000000000E+000
74200.1	1	78.184	-78.184	2.33517	0.000000000000000E+000
74320.1	1	78.3105	-78.3105	2.33485	0.000000000000000E+000
74440.1	1	78.437	-78.437	2.33468	0.000000000000000E+000
74560.1	1	78.5634	-78.5634	2.33445	0.000000000000000E+000
74680.1	1	78.6899	-78.6899	2.3342	0.000000000000000E+000
74800.1	1	78.8163	-78.8163	2.33405	0.000000000000000E+000
74920.1	1	78.9428	-78.9428	2.33395	0.000000000000000E+000
75040.1	1	79.0693	-79.0693	2.33376	0.000000000000000E+000
75160.1	1	79.1957	-79.1957	2.33385	0.000000000000000E+000
75280.1	1	79.3222	-79.3222	2.33342	0.000000000000000E+000
75400.1	1	79.4486	-79.4486	2.33313	0.000000000000000E+000
75520.1	1	79.5751	-79.5751	2.33292	0.000000000000000E+000
75640.1	1	79.7016	-79.7016	2.33271	0.000000000000000E+000
75760.1	1	79.828	-79.828	2.3325	0.000000000000000E+000
75880.1	1	79.9545	-79.9545	2.33227	0.000000000000000E+000
76000.1	1	80.081	-80.081	2.33147	0.000000000000000E+000
76120.1	1	80.2074	-80.2074	2.33093	0.000000000000000E+000
76240.1	1	80.3339	-80.3339	2.33076	0.000000000000000E+000
76360.1	1	80.4603	-80.4603	2.33067	0.000000000000000E+000
76480.1	1	80.5868	-80.5868	2.33034	0.000000000000000E+000
76600.1	1	80.7133	-80.7133	2.3296	0.000000000000000E+000
76720.1	1	80.8397	-80.8397	2.32927	0.000000000000000E+000
76840.1	1	80.9662	-80.9662	2.32885	0.000000000000000E+000
76960.1	1	81.0926	-81.0926	2.32839	0.000000000000000E+000
77080.1	1	81.2191	-81.2191	2.32796	0.000000000000000E+000
77200.1	1	81.3456	-81.3456	2.32757	0.000000000000000E+000
77320.1	1	81.472	-81.472	2.32725	0.000000000000000E+000
77440.1	1	81.5985	-81.5985	2.32658	0.000000000000000E+000
77560.1	1	81.725	-81.725	2.32603	0.000000000000000E+000
77680.1	1	81.8514	-81.8514	2.32549	0.000000000000000E+000
77800.1	1	81.9779	-81.9779	2.32505	0.000000000000000E+000
77920.1	1	82.1043	-82.1043	2.32435	0.000000000000000E+000
78040.1	1	82.2308	-82.2308	2.32404	0.000000000000000E+000
78160.1	1	82.3573	-82.3573	2.32351	0.000000000000000E+000
78280.1	1	82.4837	-82.4837	2.32303	0.000000000000000E+000
78400.1	1	82.6102	-82.6102	2.32265	0.000000000000000E+000
78520.1	1	82.7367	-82.7366	2.32234	0.000000000000000E+000
78640.1	1	82.8631	-82.8631	2.32206	0.000000000000000E+000
78760.1	1	82.9896	-82.9896	2.32127	0.000000000000000E+000
78880.1	1	83.116	-83.116	2.3207	0.000000000000000E+000
79000.1	1	83.2425	-83.2425	2.31996	0.000000000000000E+000
79120.1	1	83.369	-83.369	2.31957	0.000000000000000E+000
79240.1	1	83.4954	-83.4954	2.31919	0.000000000000000E+000
79360.1	1	83.6219	-83.6219	2.3185	0.000000000000000E+000
79480.1	1	83.7483	-83.7483	2.31837	0.000000000000000E+000
79600.1	1	83.8748	-83.8748	2.31791	0.000000000000000E+000
79720.1	1	84.0013	-84.0013	2.31728	0.000000000000000E+000
79840.1	1	84.1277	-84.1277	2.31648	0.000000000000000E+000
79960.1	1	84.2542	-84.2542	2.31526	0.000000000000000E+000
80080.1	1	84.3807	-84.3806	2.31463	0.000000000000000E+000
80200.1	1	84.5071	-84.5071	2.31381	0.000000000000000E+000
80320.1	1	84.6336	-84.6336	2.31282	0.000000000000000E+000
80440.1	1	84.76	-84.76	2.31178	0.000000000000000E+000
80560.1	1	84.8865	-84.8865	2.31083	0.000000000000000E+000
80680.1	1	85.013	-85.013	2.31001	0.000000000000000E+000
80800.1	1	85.1394	-85.1394	2.30867	0.000000000000000E+000
80920.1	1	85.2659	-85.2659	2.30795	0.000000000000000E+000
81040.1	1	85.3923	-85.3923	2.30745	0.000000000000000E+000
81160.1	1	85.5188	-85.5188	2.30653	0.000000000000000E+000
81280.1	1	85.6453	-85.6453	2.30537	0.000000000000000E+000
81400.1	1	85.7717	-85.7717	2.30436	0.000000000000000E+000
81520.1	1	85.8982	-85.8982	2.30323	0.000000000000000E+000
81640.1	1	86.0246	-86.0246	2.30218	0.000000000000000E+000
81760.1	1	86.1511	-86.1511	2.30165	0.000000000000000E+000
81880.1	1	86.2776	-86.2776	2.30046	0.000000000000000E+000
82000.1	1	86.404	-86.404	2.29934	0.000000000000000E+000
82120.1	1	86.5305	-86.5305	2.29838	0.000000000000000E+000
82240.1	1	86.657	-86.657	2.2971	0.000000000000000E+000
82360.1	1	86.7834	-86.7834	2.29567	0.000000000000000E+000
82480.1	1	86.9099	-86.9099	2.29414	0.000000000000000E+000
82600.1	1	87.0363	-87.0363	2.29321	0.000000000000000E+000
82720.1	1	87.1628	-87.1628	2.29227	0.000000000000000E+000
82840.1	1	87.2893	-87.2893	2.29126	0.000000000000000E+000
82960.1	1	87.4157	-87.4157	2.2904	0.000000000000000E+000
83080.1	1	87.5422	-87.5422	2.2892	0.000000000000000E+000
83200.1	1	87.6686	-87.6686	2.28733	0.000000000000000E+000
83320.1	1	87.7951	-87.7951	2.28609	0.000000000000000E+000
83440.1	1	87.9216	-87.9216	2.28477	0.000000000000000E+000
83560.1	1	88.048	-88.048	2.28314	0.000000000000000E+000
83680.1	1	88.1745	-88.1745	2.28185	0.000000000000000E+000
83800.1	1	88.301	-88.3009	2.28068	0.000000000000000E+000
83920.1	1	88.4274	-88.4274	2.27896	0.000000000000000E+000
84040.1	1	88.5539	-88.5539	2.27719	0.000000000000000E+000
84160.1	1	88.6803	-88.6803	2.27589	0.000000000000000E+000
84280.1	1	88.8068	-88.8068	2.27459	0.000000000000000E+000
84400.1	1	88.9333	-88.9333	2.2731	0.000000000000000E+000
84520.1	1	89.0597	-89.0597	2.27148	0.000000000000000E+000
84640.1	1	89.1862	-89.1862	2.26919	0.000000000000000E+000
84760.1	1	89.3126	-89.3126	2.26732	0.000000000000000E+000
84880.1	1	89.4391	-89.4391	2.26541	0.000000000000000E+000
85000.1	1	89.5656	-89.5656	2.26369	0.000000000000000E+000
85120.1	1	89.692	-89.692	2.26195	0.000000000000000E+000
85240.1	1	89.8185	-89.8185	2.26018	0.000000000000000E+000
85360.1	1	89.9449	-89.9449	2.25806	0.000000000000000E+000
85480.1	1	90.0714	-90.0714	2.25622	0.000000000000000E+000
85600.1	1	90.1979	-90.1979	2.25401	0.000000000000000E+000
85720.1	1	90.3243	-90.3243	2.25202	0.000000000000000E+000
85840.1	1	90.4508	-90.4508	2.24992	0.000000000000000E+000
85960.1	1	90.5773	-90.5772	2.24822	0.000000000000000E+000
86080.1	1	90.7037	-90.7037	2.24588	0.000000000000000E+000
86200.1	1	90.8302	-90.8302	2.24376	0.000000000000000E+000
86320.1	1	90.9566	-90.9566	2.24141	0.000000000000000E+000
86440.1	1	91.0831	-91.0831	2.23916	0.000000000000000E+000
86560.1	1	91.2096	-91.2096	2.23673	0.000000000000000E+000
86680.1	1	91.336	-91.336	2.23415	0.000000000000000E+000
86800.1	1	91.4625	-91.4625	2.2319	0.000000000000000E+000
86920.1	1	91.5889	-91.5889	2.22957	0.000000000000000E+000
87040.1	1	91.7154	-91.7154	2.22703	0.000000000000000E+000
87160.1	1	91.8419	-91.8419	2.2251	0.000000000000000E+000
87280.1	1	91.9683	-91.9683	2.22241	0.000000000000000E+000
87400.1	1	92.0948	-92.0948	2.21936	0.000000000000000E+000
87520.1	1	92.2212	-92.2212	2.2167	0.000000000000000E+000
87640.1	1	92.3477	-92.3477	2.21412	0.000000000000000E+000
87760.1	1	92.4742	-92.4742	2.21124	0.000000000000000E+000
87880.1	1	92.6006	-92.6006	2.2088	0.000000000000000E+000
88000.1	1	92.7271	-92.7271	2.20563	0.000000000000000E+000
88120.1	1	92.8535	-92.8535	2.20234	0.000000000000000E+000
88240.1	1	92.98	-92.98	2.19879	0.000000000000000E+000
88360.1	1	93.1065	-93.1065	2.19572	0.000000000000000E+000
88480.1	1	93.2329	-93.2329	2.19203	0.000000000000000E+000
88600.1	1	93.3594	-93.3594	2.18881	0.000000000000000E+000
88720.1	1	93.4858	-93.4858	2.18573	0.000000000000000E+000
88840.1	1	93.6123	-93.6123	2.18218	0.000000000000000E+000
88960.2	1	93.7388	-93.7388	2.17886	0.000000000000000E+000
89080.2	1	93.8652	-93.8652	2.17466	0.000000000000000E+000
89200.2	1	93.9917	-93.9917	2.17017	0.000000000000000E+000
89320.2	1	94.1181	-94.1181	2.16592	0.000000000000000E+000
89440.2	1	94.2446	-94.2446	2.16212	0.000000000000000E+000
89560.2	1	94.3711	-94.3711	2.15822	0.000000000000000E+000
89680.2	1	94.4975	-94.4975	2.15326	0.000000000000000E+000
89800.2	1	94.624	-94.624	2.14898	0.000000000000000E+000
89920.2	1	94.7504	-94.7504	2.14425	0.000000000000000E+000
90040.2	1	94.8769	-94.8769	2.1388	0.000000000000000E+000
90160.2	1	95.0034	-95.0034	2.13369	0.000000000000000E+000
90280.2	1	95.1298	-95.1298	2.12916	0.000000000000000E+000
90400.2	1	95.2563	-95.2563	2.12454	0.000000000000000E+000
90520.2	1	95.3827	-95.3827	2.11954	0.000000000000000E+000
90640.2	1	95.5092	-95.5092	2.11488	0.000000000000000E+000
90760.2	1	95.6357	-95.6357	2.10942	0.000000000000000E+000
90880.2	1	95.7621	-95.7621	2.10407	0.000000000000000E+000
91000.2	1	95.8886	-95.8886	2.09898	0.000000000000000E+000
91120.2	1	96.015	-96.015	2.09294	0.000000000000000E+000
91240.2	1	96.1415	-96.1415	2.08659	0.000000000000000E+000
91360.2	1	96.268	-96.268	2.08065	0.000000000000000E+000
91480.2	1	96.3944	-96.3944	2.07834	0.000000000000000E+000
91600.2	1	96.5209	-96.5209	2.07209	0.000000000000000E+000
91720.2	1	96.6473	-96.6473	2.06644	0.000000000000000E+000
91840.2	1	96.7738	-96.7738	2.06033	0.000000000000000E+000
91960.2	1	96.9003	-96.9003	2.05361	0.000000000000000E+000
92080.2	1	97.0267	-97.0267	2.04617	0.000000000000000E+000
92200.2	1	97.1532	-97.1532	2.03899	0.000000000000000E+000
92320.2	1	97.2796	-97.2796	2.03093	0.000000000000000E+000
92440.2	1	97.4061	-97.4061	2.02352	0.000000000000000E+000
92560.2	1	97.5326	-97.5326	2.01459	0.000000000000000E+000
92680.2	1	97.659	-97.659	2.00592	0.000000000000000E+000
92800.2	1	97.7855	-97.7855	1.99742	0.000000000000000E+000
92920.2	1	97.9119	-97.9119	1.98757	0.000000000000000E+000
93040.2	1	98.0384	-98.0384	1.97829	0.000000000000000E+000
93160.2	1	98.1649	-98.1649	1.96949	0.000000000000000E+000
93280.2	1	98.2913	-98.2913	1.95989	0.000000000000000E+000
93400.2	1	98.4178	-98.4178	1.94897	0.000000000000000E+000
93520.2	1	98.5442	-98.5442	1.93877	0.000000000000000E+000
93640.2	1	98.6707	-98.6707	1.92737	0.000000000000000E+000
93760.2	1	98.7971	-98.7971	1.91697	0.000000000000000E+000
93880.2	1	98.9236	-98.9236	1.90643	0.000000000000000E+000
94000.2	1	99.0501	-99.0501	1.89677	0.000000000000000E+000
94120.2	1	99.1765	-99.1765	1.88489	0.000000000000000E+000
94240.2	1	99.303	-99.303	1.87219	0.000000000000000E+000
94360.2	1	99.4294	-99.4294	1.859	0.000000000000000E+000
94480.2	1	99.5559	-99.5559	1.84594	0.000000000000000E+000
94600.2	1	99.6824	-99.6824	1.83111	0.000000000000000E+000
94720.2	1	99.8088	-99.8088	1.81801	0.000000000000000E+000
94840.2	1	99.9353	-99.9353	1.80457	0.000000000000000E+000
94960.2	1	100.062	-100.062	1.79031	0.000000000000000E+000
95080.2	1	100.188	-100.188	1.77479	0.000000000000000E+000
95200.2	1	100.315	-100.315	1.76035	0.000000000000000E+000
95320.2	1	100.441	-100.441	1.74496	0.000000000000000E+000
95440.2	1	100.568	-100.568	1.72812	0.000000000000000E+000
95560.2	1	100.694	-100.694	1.71405	0.000000000000000E+000
95680.2	1	100.82	-100.82	1.69681	0.000000000000000E+000
95800.2	1	100.947	-100.947	1.6778	0.000000000000000E+000
95920.2	1	101.073	-101.073	1.65951	0.000000000000000E+000
96040.2	1	101.2	-101.2	1.63961	0.000000000000000E+000
96160.2	1	101.326	-101.326	1.62178	0.000000000000000E+000
96280.2	1	101.453	-101.453	1.60312	0.000000000000000E+000
96400.2	1	101.579	-101.579	1.58315	0.000000000000000E+000
96520.2	1	101.706	-101.706	1.56433	0.000000000000000E+000
96640.2	1	101.832	-101.832	1.54541	0.000000000000000E+000
96760.2	1	101.959	-101.959	1.52536	0.000000000000000E+000
96880.2	1	102.085	-102.085	1.50526	0.000000000000000E+000
96905.5	3	102.111	-102.111	2.40045	0.000000000000000E+000
96912.1	3	102.111	-102.111	2.44053	0.000000000000000E+000
96931.3	3	102.111	-102.111	2.48057	0.000000000000000E+000
96966.3	3	102.111	-102.111	2.52062	0.000000000000000E+000
97023.7	3	102.111	-102.111	2.56066	0.000000000000000E+000
97116.4	3	102.111	-102.111	2.60076	0.000000000000000E+000
97263.2	3	102.111	-102.111	2.64077	0.000000000000000E+000
97488.7	3	102.111	-102.111	2.68081	0.000000000000000E+000
97832.7	3	102.111	-102.111	2.72091	0.000000000000000E+000
98303.5	3	102.111	-102.111	2.75695	0.000000000000000E+000
98783.5	3	102.111	-102.111	2.7837	0.000000000000000E+000
99263.5	3	102.111	-102.111	2.80423	0.000000000000000E+000
99743.5	3	102.111	-102.111	2.82128	0.000000000000000E+000
100223	3	102.111	-102.111	2.83573	0.000000000000000E+000
100703	3	102.111	-102.111	2.84825	0.000000000000000E+000
101183	3	102.111	-102.111	2.85948	0.000000000000000E+000
101663	3	102.111	-102.111	2.86958	0.000000000000000E+000
102143	3	102.111	-102.111	2.87875	0.000000000000000E+000
102623	3	102.111	-102.111	2.88703	0.000000000000000E+000
103103	3	102.111	-102.111	2.8948	0.000000000000000E+000
103583	3	102.111	-102.111	2.9021	0.000000000000000E+000
104063	3	102.111	-102.111	2.90853	0.000000000000000E+000
104543	3	102.111	-102.111	2.91483	0.000000000000000E+000
105023	3	102.111	-102.111	2.92067	0.000000000000000E+000
105503	3	102.111	-102.111	2.92608	0.000000000000000E+000
105983	3	102.111	-102.111	2.93127	0.000000000000000E+000
106463	3	102.111	-102.111	2.93602	0.000000000000000E+000
106943	3	102.111	-102.111	2.94068	0.000000000000000E+000
107423	3	102.111	-102.111	2.94488	0.000000000000000E+000
107903	3	102.111	-102.111	2.94908	0.000000000000000E+000
108383	3	102.111	-102.111	2.95298	0.000000000000000E+000
108863	3	102.111	-102.111	2.95659	0.000000000000000E+000
109343	3	102.111	-102.111	2.96008	0.000000000000000E+000
109824	3	102.111	-102.111	2.96344	0.000000000000000E+000
110304	3	102.111	-102.111	2.96663	0.000000000000000E+000
110784	3	102.111	-102.111	2.96968	0.000000000000000E+000
111264	3	102.111	-102.111	2.97283	0.000000000000000E+000
111744	3	102.111	-102.111	2.97558	0.000000000000000E+000
112224	3	102.111	-102.111	2.97837	0.000000000000000E+000
112704	3	102.111	-102.111	2.98112	0.000000000000000E+000
113184	3	102.111	-102.111	2.98362	0.000000000000000E+000
113664	3	102.111	-102.111	2.98614	0.000000000000000E+000
114144	3	102.111	-102.111	2.98859	0.000000000000000E+000
114624	3	102.111	-102.111	2.9908	0.000000000000000E+000
115104	3	102.111	-102.111	2.99309	0.000000000000000E+000
115584	3	102.111	-102.111	2.9951	0.000000000000000E+000
116064	3	102.111	-102.111	2.99722	0.000000000000000E+000
116544	3	102.111	-102.111	2.99932	0.000000000000000E+000
117024	3	102.111	-102.111	3.00132	0.000000000000000E+000
117504	3	102.111	-102.111	3.00323	0.000000000000000E+000
117984	3	102.111	-102.111	3.00523	0.000000000000000E+000
118464	3	102.111	-102.111	3.00699	0.000000000000000E+000
118944	3	102.111	-102.111	3.00879	0.000000000000000E+000
119424	3	102.111	-102.111	3.01066	0.000000000000000E+000
119904	3	102.111	-102.111	3.01236	0.000000000000000E+000
120384	3	102.111	-102.111	3.01402	0.000000000000000E+000
120864	3	102.111	-102.111	3.01583	0.000000000000000E+000
121344	3	102.111	-102.111	3.01742	0.000000000000000E+000
121824	3	102.111	-102.111	3.01892	0.000000000000000E+000
122304	3	102.111	-102.111	3.02043	0.000000000000000E+000
122784	3	102.111	-102.111	3.02198	0.000000000000000E+000
122831	3	102.111	-102.111	3.02209	0.000000000000000E+000